Time (s),Vocal Tract Length (cm),f1 (Hz),f2 (Hz)
0.0200,7.30,1174.17,3475.54
0.0300,9.13,939.33,3146.77
0.1800,7.61,1127.20,8454.01
0.1900,8.30,1033.27,8454.01
0.3000,14.04,610.57,21604.70
0.3100,12.17,704.50,19209.39
0.4000,20.29,422.70,21557.73
0.5300,14.04,610.57,21604.70
0.5600,10.74,798.43,21557.73
0.5700,11.41,751.47,16861.06
0.5800,12.17,704.50,21510.76
0.5900,13.04,657.53,21651.66
0.6000,18.26,469.67,8547.95
0.6900,11.41,751.47,3898.24
0.7300,22.82,375.73,3428.57
0.7400,36.52,234.83,8219.18
0.7500,18.26,469.67,21604.70
0.7600,14.04,610.57,21651.66
0.7700,13.04,657.53,12587.08
0.8100,16.60,516.63,2113.50
1.5100,15.21,563.60,3898.24
1.5200,12.17,704.50,3428.57
1.5900,15.21,563.60,17048.92
1.6000,16.60,516.63,8782.78
1.6100,18.26,469.67,8876.71
1.6200,20.29,422.70,8829.75
1.6300,22.82,375.73,3334.64
1.6400,91.29,93.93,8594.91
1.6500,36.52,234.83,8360.08
1.6600,20.29,422.70,21557.73
1.6900,16.60,516.63,18974.56
1.7000,15.21,563.60,19021.53
1.7400,8.69,986.30,19303.33
1.7500,12.17,704.50,10567.51
1.7600,15.21,563.60,14935.42
1.7700,20.29,422.70,14794.52
1.8200,7.61,1127.20,21557.73
1.8300,7.94,1080.23,17001.96
1.8900,10.14,845.40,21604.70
1.9000,9.61,892.37,21510.76
1.9400,7.94,1080.23,21369.86
1.9600,7.94,1080.23,18974.56
2.0300,10.14,845.40,21369.86
2.0400,12.17,704.50,7984.34
2.0500,30.43,281.80,8641.88
2.3000,10.74,798.43,3334.64
2.4700,10.14,845.40,3475.54
2.5700,9.61,892.37,14465.75
2.6200,8.69,986.30,18974.56
2.6300,8.30,1033.27,18739.73
2.6400,8.69,986.30,19162.43
2.6500,8.69,986.30,19162.43
2.6600,9.13,939.33,14559.69
2.6700,9.61,892.37,10097.85
2.6800,10.74,798.43,19162.43
2.6900,91.29,93.93,10097.85
2.7200,12.17,704.50,7749.51
2.7300,7.94,1080.23,7890.41
2.7400,8.30,1033.27,8500.98
2.7500,10.74,798.43,8735.81
2.7600,10.74,798.43,8688.85
2.7800,7.30,1174.17,3381.60
2.7900,10.14,845.40,3381.60
2.8500,18.26,469.67,3710.37
2.8600,12.17,704.50,3663.41
2.8700,12.17,704.50,3475.54
2.8800,20.29,422.70,8923.68
2.8900,45.64,187.87,8688.85
2.9400,15.21,563.60,8594.91
2.9500,13.04,657.53,8688.85
2.9600,10.14,845.40,8641.88
2.9700,13.04,657.53,8688.85
2.9800,22.82,375.73,8547.95
3.0800,7.30,1174.17,6105.68
